SpectraSuite Data File
++++++++++++++++++++++++++++++++++++
Date: Wed Sep 24 18:43:25 PDT 2014
User: ugastro
Dark Spectrum Present: No
Reference Spectrum Present: No
Number of Sampled Component Spectra: 1
Spectrometers: USB2G5981
Integration Time (usec): 300000 (USB2G5981)
Spectra Averaged: 1 (USB2G5981)
Boxcar Smoothing: 0 (USB2G5981)
Correct for Electrical Dark: No (USB2G5981)
Strobe/Lamp Enabled: No (USB2G5981)
Correct for Detector Non-linearity: No (USB2G5981)
Correct for Stray Light: No (USB2G5981)
Number of Pixels in Processed Spectrum: 2048
>>>>>Begin Processed Spectral Data<<<<<
344.31	0.00
344.51	113.00
344.71	116.00
344.90	114.00
345.10	117.00
345.30	126.00
345.50	121.00
345.69	123.00
345.89	131.00
346.09	123.00
346.28	120.00
346.48	121.00
346.68	124.00
346.88	122.00
347.07	123.00
347.27	121.00
347.47	125.00
347.66	124.00
347.86	125.00
348.06	126.00
348.25	122.00
348.45	130.00
348.65	125.00
348.85	122.00
349.04	120.00
349.24	123.00
349.44	135.00
349.63	127.00
349.83	123.00
350.02	125.00
350.22	126.00
350.42	128.00
350.61	125.00
350.81	125.00
351.01	125.00
351.20	125.00
351.40	123.00
351.60	131.00
351.79	128.00
351.99	129.00
352.19	125.00
352.38	122.00
352.58	125.00
352.77	127.00
352.97	125.00
353.17	128.00
353.36	128.00
353.56	126.00
353.75	126.00
353.95	124.00
354.15	124.00
354.34	124.00
354.54	126.00
354.73	124.00
354.93	124.00
355.13	124.00
355.32	126.00
355.52	129.00
355.71	125.00
355.91	127.00
356.10	130.00
356.30	126.00
356.50	125.00
356.69	122.00
356.89	124.00
357.08	127.00
357.28	125.00
357.47	127.00
357.67	131.00
357.86	131.00
358.06	128.00
358.25	124.00
358.45	126.00
358.65	124.00
358.84	124.00
359.04	124.00
359.23	126.00
359.43	126.00
359.62	125.00
359.82	125.00
360.01	134.00
360.21	128.00
360.40	127.00
360.60	126.00
360.79	128.00
360.99	129.00
361.18	130.00
361.38	127.00
361.57	128.00
361.77	124.00
361.96	132.00
362.16	138.00
362.35	132.00
362.54	130.00
362.74	131.00
362.93	131.00
363.13	127.00
363.32	129.00
363.52	125.00
363.71	124.00
363.91	131.00
364.10	129.00
364.30	124.00
364.49	123.00
364.68	128.00
364.88	129.00
365.07	128.00
365.27	128.00
365.46	131.00
365.66	130.00
365.85	128.00
366.04	130.00
366.24	127.00
366.43	128.00
366.63	129.00
366.82	130.00
367.01	130.00
367.21	130.00
367.40	128.00
367.60	130.00
367.79	126.00
367.98	127.00
368.18	132.00
368.37	130.00
368.56	128.00
368.76	132.00
368.95	129.00
369.15	130.00
369.34	129.00
369.53	126.00
369.73	128.00
369.92	126.00
370.11	128.00
370.31	130.00
370.50	128.00
370.69	126.00
370.89	131.00
371.08	132.00
371.27	128.00
371.47	127.00
371.66	125.00
371.85	129.00
372.05	127.00
372.24	130.00
372.43	130.00
372.63	131.00
372.82	127.00
373.01	127.00
373.21	124.00
373.40	127.00
373.59	124.00
373.78	125.00
373.98	128.00
374.17	142.00
374.36	132.00
374.56	130.00
374.75	125.00
374.94	126.00
375.13	130.00
375.33	131.00
375.52	126.00
375.71	125.00
375.91	129.00
376.10	132.00
376.29	134.00
376.48	129.00
376.68	133.00
376.87	129.00
377.06	130.00
377.25	128.00
377.45	135.00
377.64	134.00
377.83	129.00
378.02	129.00
378.21	128.00
378.41	129.00
378.60	129.00
378.79	135.00
378.98	136.00
379.18	130.00
379.37	131.00
379.56	128.00
379.75	130.00
379.94	131.00
380.14	127.00
380.33	128.00
380.52	132.00
380.71	125.00
380.90	126.00
381.09	129.00
381.29	126.00
381.48	126.00
381.67	133.00
381.86	135.00
382.05	136.00
382.25	142.00
382.44	137.00
382.63	133.00
382.82	128.00
383.01	130.00
383.20	127.00
383.39	128.00
383.59	126.00
383.78	128.00
383.97	127.00
384.16	130.00
384.35	127.00
384.54	126.00
384.73	129.00
384.92	131.00
385.12	130.00
385.31	130.00
385.50	127.00
385.69	127.00
385.88	126.00
386.07	128.00
386.26	130.00
386.45	128.00
386.64	134.00
386.84	127.00
387.03	124.00
387.22	125.00
387.41	124.00
387.60	121.00
387.79	129.00
387.98	131.00
388.17	138.00
388.36	130.00
388.55	134.00
388.74	132.00
388.93	131.00
389.12	126.00
389.31	129.00
389.51	130.00
389.70	136.00
389.89	130.00
390.08	132.00
390.27	136.00
390.46	130.00
390.65	129.00
390.84	133.00
391.03	127.00
391.22	131.00
391.41	133.00
391.60	130.00
391.79	128.00
391.98	136.00
392.17	132.00
392.36	132.00
392.55	130.00
392.74	125.00
392.93	127.00
393.12	129.00
393.31	125.00
393.50	128.00
393.69	127.00
393.88	128.00
394.07	131.00
394.26	129.00
394.45	132.00
394.64	128.00
394.83	130.00
395.02	127.00
395.21	129.00
395.40	130.00
395.59	127.00
395.77	128.00
395.96	125.00
396.15	128.00
396.34	130.00
396.53	132.00
396.72	132.00
396.91	132.00
397.10	132.00
397.29	129.00
397.48	130.00
397.67	130.00
397.86	127.00
398.05	128.00
398.24	128.00
398.43	128.00
398.61	128.00
398.80	130.00
398.99	126.00
399.18	123.00
399.37	124.00
399.56	128.00
399.75	132.00
399.94	131.00
400.13	134.00
400.31	143.00
400.50	131.00
400.69	148.00
400.88	134.00
401.07	134.00
401.26	132.00
401.45	134.00
401.64	133.00
401.82	133.00
402.01	129.00
402.20	134.00
402.39	132.00
402.58	130.00
402.77	128.00
402.95	136.00
403.14	131.00
403.33	134.00
403.52	136.00
403.71	135.00
403.90	133.00
404.08	131.00
404.27	128.00
404.46	130.00
404.65	136.00
404.84	133.00
405.02	133.00
405.21	132.00
405.40	129.00
405.59	131.00
405.78	130.00
405.96	132.00
406.15	135.00
406.34	137.00
406.53	132.00
406.72	136.00
406.90	138.00
407.09	132.00
407.28	132.00
407.47	135.00
407.65	136.00
407.84	138.00
408.03	138.00
408.22	136.00
408.40	135.00
408.59	138.00
408.78	138.00
408.97	144.00
409.15	152.00
409.34	142.00
409.53	143.00
409.72	140.00
409.90	140.00
410.09	143.00
410.28	142.00
410.47	147.00
410.65	150.00
410.84	155.00
411.03	145.00
411.21	146.00
411.40	148.00
411.59	150.00
411.78	154.00
411.96	157.00
412.15	157.00
412.34	159.00
412.52	160.00
412.71	182.00
412.90	172.00
413.08	161.00
413.27	169.00
413.46	173.00
413.64	176.00
413.83	177.00
414.02	177.00
414.20	184.00
414.39	186.00
414.58	189.00
414.76	199.00
414.95	190.00
415.14	194.00
415.32	201.00
415.51	199.00
415.69	205.00
415.88	217.00
416.07	217.00
416.25	221.00
416.44	220.00
416.63	232.00
416.81	229.00
417.00	241.00
417.18	244.00
417.37	254.00
417.56	255.00
417.74	266.00
417.93	260.00
418.11	269.00
418.30	285.00
418.49	275.00
418.67	285.00
418.86	295.00
419.04	321.00
419.23	315.00
419.42	327.00
419.60	336.00
419.79	331.00
419.97	336.00
420.16	346.00
420.34	355.00
420.53	370.00
420.72	376.00
420.90	381.00
421.09	397.00
421.27	396.00
421.46	402.00
421.64	422.00
421.83	426.00
422.01	433.00
422.20	434.00
422.38	457.00
422.57	478.00
422.75	458.00
422.94	457.00
423.12	495.00
423.31	498.00
423.49	506.00
423.68	507.00
423.86	519.00
424.05	522.00
424.23	548.00
424.42	551.00
424.60	583.00
424.79	564.00
424.97	590.00
425.16	586.00
425.34	600.00
425.53	594.00
425.71	610.00
425.90	635.00
426.08	622.00
426.27	618.00
426.45	669.00
426.64	645.00
426.82	651.00
427.01	666.00
427.19	692.00
427.38	703.00
427.56	691.00
427.74	729.00
427.93	709.00
428.11	744.00
428.30	738.00
428.48	748.00
428.67	771.00
428.85	759.00
429.03	765.00
429.22	801.00
429.40	781.00
429.59	788.00
429.77	800.00
429.95	809.00
430.14	821.00
430.32	822.00
430.51	852.00
430.69	865.00
430.87	844.00
431.06	872.00
431.24	908.00
431.43	909.00
431.61	920.00
431.79	927.00
431.98	938.00
432.16	938.00
432.34	974.00
432.53	939.00
432.71	999.00
432.90	1002.00
433.08	1023.00
433.26	1017.00
433.45	1049.00
433.63	1061.00
433.81	1038.00
434.00	1081.00
434.18	1102.00
434.36	1087.00
434.55	1124.00
434.73	1155.00
434.91	1149.00
435.10	1163.00
435.28	1177.00
435.46	1212.00
435.65	1187.00
435.83	1218.00
436.01	1253.00
436.20	1266.00
436.38	1281.00
436.56	1291.00
436.74	1301.00
436.93	1277.00
437.11	1303.00
437.29	1329.00
437.48	1299.00
437.66	1355.00
437.84	1325.00
438.02	1360.00
438.21	1383.00
438.39	1384.00
438.57	1345.00
438.75	1389.00
438.94	1386.00
439.12	1398.00
439.30	1388.00
439.48	1397.00
439.67	1390.00
439.85	1401.00
440.03	1354.00
440.21	1370.00
440.40	1369.00
440.58	1355.00
440.76	1353.00
440.94	1379.00
441.13	1358.00
441.31	1312.00
441.49	1323.00
441.67	1300.00
441.85	1327.00
442.04	1330.00
442.22	1302.00
442.40	1241.00
442.58	1266.00
442.76	1250.00
442.95	1239.00
443.13	1206.00
443.31	1200.00
443.49	1170.00
443.67	1121.00
443.86	1134.00
444.04	1123.00
444.22	1130.00
444.40	1056.00
444.58	1070.00
444.76	1034.00
444.95	1027.00
445.13	970.00
445.31	961.00
445.49	967.00
445.67	929.00
445.85	940.00
446.04	904.00
446.22	907.00
446.40	860.00
446.58	858.00
446.76	838.00
446.94	798.00
447.12	781.00
447.30	764.00
447.49	753.00
447.67	746.00
447.85	780.00
448.03	708.00
448.21	701.00
448.39	674.00
448.57	671.00
448.75	648.00
448.93	620.00
449.12	615.00
449.30	620.00
449.48	597.00
449.66	608.00
449.84	561.00
450.02	570.00
450.20	553.00
450.38	591.00
450.56	534.00
450.74	521.00
450.92	502.00
451.10	488.00
451.28	488.00
451.46	492.00
451.64	475.00
451.83	467.00
452.01	445.00
452.19	448.00
452.37	446.00
452.55	436.00
452.73	418.00
452.91	421.00
453.09	403.00
453.27	404.00
453.45	389.00
453.63	398.00
453.81	380.00
453.99	380.00
454.17	374.00
454.35	372.00
454.53	370.00
454.71	356.00
454.89	351.00
455.07	351.00
455.25	335.00
455.43	344.00
455.61	339.00
455.79	322.00
455.97	319.00
456.15	323.00
456.33	309.00
456.51	314.00
456.69	312.00
456.87	291.00
457.05	307.00
457.23	289.00
457.41	294.00
457.59	289.00
457.76	287.00
457.94	272.00
458.12	269.00
458.30	266.00
458.48	267.00
458.66	265.00
458.84	266.00
459.02	252.00
459.20	254.00
459.38	256.00
459.56	242.00
459.74	243.00
459.92	246.00
460.10	242.00
460.27	243.00
460.45	233.00
460.63	226.00
460.81	232.00
460.99	228.00
461.17	223.00
461.35	210.00
461.53	219.00
461.71	215.00
461.88	216.00
462.06	213.00
462.24	210.00
462.42	213.00
462.60	203.00
462.78	205.00
462.96	207.00
463.14	202.00
463.31	207.00
463.49	199.00
463.67	199.00
463.85	201.00
464.03	196.00
464.21	193.00
464.38	190.00
464.56	195.00
464.74	203.00
464.92	190.00
465.10	191.00
465.28	192.00
465.45	199.00
465.63	193.00
465.81	186.00
465.99	183.00
466.17	186.00
466.35	184.00
466.52	188.00
466.70	182.00
466.88	179.00
467.06	174.00
467.24	175.00
467.41	177.00
467.59	174.00
467.77	186.00
467.95	174.00
468.12	174.00
468.30	175.00
468.48	174.00
468.66	177.00
468.84	182.00
469.01	173.00
469.19	172.00
469.37	173.00
469.55	179.00
469.72	177.00
469.90	180.00
470.08	179.00
470.26	170.00
470.43	180.00
470.61	174.00
470.79	164.00
470.96	170.00
471.14	172.00
471.32	170.00
471.50	169.00
471.67	173.00
471.85	168.00
472.03	170.00
472.20	170.00
472.38	169.00
472.56	174.00
472.74	176.00
472.91	170.00
473.09	164.00
473.27	171.00
473.44	174.00
473.62	161.00
473.80	166.00
473.97	160.00
474.15	163.00
474.33	166.00
474.50	163.00
474.68	164.00
474.86	164.00
475.03	207.00
475.21	164.00
475.39	166.00
475.56	167.00
475.74	162.00
475.92	165.00
476.09	161.00
476.27	160.00
476.45	169.00
476.62	163.00
476.80	160.00
476.97	160.00
477.15	152.00
477.33	160.00
477.50	163.00
477.68	163.00
477.86	160.00
478.03	162.00
478.21	163.00
478.38	163.00
478.56	164.00
478.74	159.00
478.91	160.00
479.09	158.00
479.26	162.00
479.44	160.00
479.62	160.00
479.79	159.00
479.97	159.00
480.14	157.00
480.32	154.00
480.49	155.00
480.67	159.00
480.85	159.00
481.02	166.00
481.20	156.00
481.37	168.00
481.55	167.00
481.72	159.00
481.90	154.00
482.07	158.00
482.25	162.00
482.42	161.00
482.60	157.00
482.78	165.00
482.95	169.00
483.13	166.00
483.30	163.00
483.48	165.00
483.65	162.00
483.83	161.00
484.00	164.00
484.18	166.00
484.35	162.00
484.53	187.00
484.70	166.00
484.88	168.00
485.05	163.00
485.23	170.00
485.40	167.00
485.58	167.00
485.75	167.00
485.93	165.00
486.10	168.00
486.27	165.00
486.45	168.00
486.62	170.00
486.80	171.00
486.97	170.00
487.15	168.00
487.32	173.00
487.50	175.00
487.67	178.00
487.85	173.00
488.02	177.00
488.19	172.00
488.37	174.00
488.54	176.00
488.72	178.00
488.89	173.00
489.07	189.00
489.24	181.00
489.41	174.00
489.59	177.00
489.76	178.00
489.94	179.00
490.11	178.00
490.28	180.00
490.46	176.00
490.63	181.00
490.81	185.00
490.98	181.00
491.15	195.00
491.33	184.00
491.50	186.00
491.68	183.00
491.85	186.00
492.02	196.00
492.20	184.00
492.37	197.00
492.54	191.00
492.72	196.00
492.89	186.00
493.06	192.00
493.24	192.00
493.41	191.00
493.58	200.00
493.76	192.00
493.93	190.00
494.10	201.00
494.28	194.00
494.45	201.00
494.62	197.00
494.80	204.00
494.97	198.00
495.14	208.00
495.32	207.00
495.49	210.00
495.66	202.00
495.84	207.00
496.01	226.00
496.18	209.00
496.36	206.00
496.53	205.00
496.70	218.00
496.87	230.00
497.05	220.00
497.22	223.00
497.39	214.00
497.57	219.00
497.74	220.00
497.91	223.00
498.08	221.00
498.26	224.00
498.43	227.00
498.60	227.00
498.77	228.00
498.95	239.00
499.12	234.00
499.29	238.00
499.46	235.00
499.64	237.00
499.81	236.00
499.98	247.00
500.15	237.00
500.33	249.00
500.50	238.00
500.67	249.00
500.84	249.00
501.01	248.00
501.19	254.00
501.36	253.00
501.53	254.00
501.70	258.00
501.87	273.00
502.05	264.00
502.22	265.00
502.39	270.00
502.56	274.00
502.73	270.00
502.91	269.00
503.08	285.00
503.25	276.00
503.42	285.00
503.59	282.00
503.77	286.00
503.94	289.00
504.11	285.00
504.28	288.00
504.45	292.00
504.62	288.00
504.79	286.00
504.97	293.00
505.14	296.00
505.31	299.00
505.48	308.00
505.65	307.00
505.82	315.00
505.99	303.00
506.17	315.00
506.34	310.00
506.51	323.00
506.68	321.00
506.85	326.00
507.02	326.00
507.19	322.00
507.36	336.00
507.53	330.00
507.71	339.00
507.88	343.00
508.05	337.00
508.22	361.00
508.39	366.00
508.56	350.00
508.73	353.00
508.90	349.00
509.07	359.00
509.24	365.00
509.41	367.00
509.58	368.00
509.76	368.00
509.93	380.00
510.10	369.00
510.27	372.00
510.44	372.00
510.61	381.00
510.78	396.00
510.95	383.00
511.12	393.00
511.29	386.00
511.46	392.00
511.63	392.00
511.80	398.00
511.97	403.00
512.14	394.00
512.31	401.00
512.48	409.00
512.65	410.00
512.82	412.00
512.99	417.00
513.16	410.00
513.33	421.00
513.50	417.00
513.67	420.00
513.84	422.00
514.01	425.00
514.18	422.00
514.35	431.00
514.52	418.00
514.69	439.00
514.86	428.00
515.03	431.00
515.20	431.00
515.37	439.00
515.54	438.00
515.71	435.00
515.88	450.00
516.05	476.00
516.22	455.00
516.39	452.00
516.56	454.00
516.73	460.00
516.90	456.00
517.06	466.00
517.23	458.00
517.40	456.00
517.57	455.00
517.74	467.00
517.91	466.00
518.08	477.00
518.25	473.00
518.42	460.00
518.59	470.00
518.76	480.00
518.93	475.00
519.09	490.00
519.26	478.00
519.43	474.00
519.60	477.00
519.77	484.00
519.94	482.00
520.11	474.00
520.28	485.00
520.45	496.00
520.61	491.00
520.78	487.00
520.95	483.00
521.12	510.00
521.29	502.00
521.46	492.00
521.63	504.00
521.79	491.00
521.96	507.00
522.13	503.00
522.30	495.00
522.47	500.00
522.64	516.00
522.80	511.00
522.97	505.00
523.14	506.00
523.31	508.00
523.48	504.00
523.65	514.00
523.81	503.00
523.98	508.00
524.15	514.00
524.32	499.00
524.49	525.00
524.65	515.00
524.82	515.00
524.99	517.00
525.16	510.00
525.33	510.00
525.49	512.00
525.66	519.00
525.83	524.00
526.00	519.00
526.17	517.00
526.33	512.00
526.50	516.00
526.67	524.00
526.84	518.00
527.00	511.00
527.17	524.00
527.34	533.00
527.51	529.00
527.67	528.00
527.84	517.00
528.01	523.00
528.18	516.00
528.34	522.00
528.51	514.00
528.68	521.00
528.85	536.00
529.01	518.00
529.18	517.00
529.35	527.00
529.51	536.00
529.68	528.00
529.85	532.00
530.02	529.00
530.18	517.00
530.35	524.00
530.52	533.00
530.68	531.00
530.85	520.00
531.02	533.00
531.18	522.00
531.35	521.00
531.52	520.00
531.68	521.00
531.85	530.00
532.02	522.00
532.18	537.00
532.35	525.00
532.52	535.00
532.68	530.00
532.85	530.00
533.02	533.00
533.18	532.00
533.35	532.00
533.52	532.00
533.68	523.00
533.85	519.00
534.02	531.00
534.18	547.00
534.35	524.00
534.51	539.00
534.68	530.00
534.85	528.00
535.01	518.00
535.18	531.00
535.35	507.00
535.51	539.00
535.68	525.00
535.84	526.00
536.01	538.00
536.18	538.00
536.34	532.00
536.51	540.00
536.67	534.00
536.84	525.00
537.00	524.00
537.17	537.00
537.34	522.00
537.50	530.00
537.67	510.00
537.83	527.00
538.00	527.00
538.16	533.00
538.33	536.00
538.50	540.00
538.66	529.00
538.83	535.00
538.99	542.00
539.16	522.00
539.32	532.00
539.49	544.00
539.65	530.00
539.82	528.00
539.98	539.00
540.15	529.00
540.31	539.00
540.48	539.00
540.65	545.00
540.81	533.00
540.98	535.00
541.14	549.00
541.31	542.00
541.47	529.00
541.64	538.00
541.80	548.00
541.97	541.00
542.13	552.00
542.29	539.00
542.46	558.00
542.62	561.00
542.79	558.00
542.95	555.00
543.12	539.00
543.28	552.00
543.45	557.00
543.61	579.00
543.78	549.00
543.94	554.00
544.11	567.00
544.27	568.00
544.44	557.00
544.60	545.00
544.76	561.00
544.93	549.00
545.09	560.00
545.26	557.00
545.42	561.00
545.59	567.00
545.75	556.00
545.91	548.00
546.08	559.00
546.24	552.00
546.41	546.00
546.57	554.00
546.73	552.00
546.90	547.00
547.06	545.00
547.23	539.00
547.39	547.00
547.55	530.00
547.72	545.00
547.88	530.00
548.05	536.00
548.21	519.00
548.37	518.00
548.54	517.00
548.70	521.00
548.86	538.00
549.03	534.00
549.19	528.00
549.36	520.00
549.52	542.00
549.68	520.00
549.85	527.00
550.01	529.00
550.17	522.00
550.34	531.00
550.50	546.00
550.66	525.00
550.83	541.00
550.99	519.00
551.15	532.00
551.32	534.00
551.48	523.00
551.64	526.00
551.81	531.00
551.97	530.00
552.13	532.00
552.29	513.00
552.46	530.00
552.62	529.00
552.78	528.00
552.95	523.00
553.11	518.00
553.27	533.00
553.43	535.00
553.60	518.00
553.76	522.00
553.92	518.00
554.09	524.00
554.25	511.00
554.41	530.00
554.57	526.00
554.74	525.00
554.90	510.00
555.06	511.00
555.22	518.00
555.39	518.00
555.55	510.00
555.71	522.00
555.87	515.00
556.04	523.00
556.20	521.00
556.36	530.00
556.52	523.00
556.69	513.00
556.85	526.00
557.01	526.00
557.17	521.00
557.33	515.00
557.50	533.00
557.66	530.00
557.82	524.00
557.98	522.00
558.14	509.00
558.31	535.00
558.47	531.00
558.63	536.00
558.79	527.00
558.95	533.00
559.12	528.00
559.28	521.00
559.44	534.00
559.60	524.00
559.76	538.00
559.92	523.00
560.09	550.00
560.25	538.00
560.41	521.00
560.57	545.00
560.73	557.00
560.89	550.00
561.05	536.00
561.22	534.00
561.38	547.00
561.54	527.00
561.70	541.00
561.86	543.00
562.02	543.00
562.18	530.00
562.34	543.00
562.51	548.00
562.67	555.00
562.83	553.00
562.99	560.00
563.15	558.00
563.31	549.00
563.47	569.00
563.63	564.00
563.79	557.00
563.95	553.00
564.12	564.00
564.28	564.00
564.44	585.00
564.60	569.00
564.76	575.00
564.92	585.00
565.08	578.00
565.24	582.00
565.40	577.00
565.56	594.00
565.72	586.00
565.88	599.00
566.04	596.00
566.20	586.00
566.36	596.00
566.52	605.00
566.69	606.00
566.85	606.00
567.01	612.00
567.17	618.00
567.33	618.00
567.49	620.00
567.65	623.00
567.81	624.00
567.97	623.00
568.13	640.00
568.29	634.00
568.45	634.00
568.61	650.00
568.77	648.00
568.93	648.00
569.09	658.00
569.25	657.00
569.41	666.00
569.57	674.00
569.73	663.00
569.89	668.00
570.05	690.00
570.21	677.00
570.37	685.00
570.53	691.00
570.68	682.00
570.84	688.00
571.00	698.00
571.16	693.00
571.32	711.00
571.48	705.00
571.64	707.00
571.80	700.00
571.96	720.00
572.12	731.00
572.28	741.00
572.44	737.00
572.60	725.00
572.76	734.00
572.92	749.00
573.08	758.00
573.23	749.00
573.39	766.00
573.55	772.00
573.71	761.00
573.87	774.00
574.03	780.00
574.19	783.00
574.35	788.00
574.51	798.00
574.67	804.00
574.82	814.00
574.98	823.00
575.14	817.00
575.30	826.00
575.46	823.00
575.62	859.00
575.78	844.00
575.94	856.00
576.09	863.00
576.25	888.00
576.41	867.00
576.57	873.00
576.73	898.00
576.89	900.00
577.05	908.00
577.20	923.00
577.36	921.00
577.52	937.00
577.68	935.00
577.84	941.00
578.00	964.00
578.15	967.00
578.31	984.00
578.47	958.00
578.63	986.00
578.79	1008.00
578.94	1011.00
579.10	1029.00
579.26	1025.00
579.42	1039.00
579.58	1042.00
579.73	1070.00
579.89	1072.00
580.05	1060.00
580.21	1095.00
580.37	1081.00
580.52	1102.00
580.68	1110.00
580.84	1110.00
581.00	1131.00
581.15	1146.00
581.31	1167.00
581.47	1166.00
581.63	1181.00
581.78	1194.00
581.94	1192.00
582.10	1228.00
582.26	1230.00
582.41	1231.00
582.57	1267.00
582.73	1271.00
582.89	1252.00
583.04	1302.00
583.20	1303.00
583.36	1299.00
583.52	1303.00
583.67	1330.00
583.83	1349.00
583.99	1359.00
584.14	1346.00
584.30	1357.00
584.46	1393.00
584.62	1381.00
584.77	1430.00
584.93	1419.00
585.09	1449.00
585.24	1468.00
585.40	1471.00
585.56	1456.00
585.71	1489.00
585.87	1491.00
586.03	1496.00
586.18	1521.00
586.34	1523.00
586.50	1543.00
586.65	1544.00
586.81	1558.00
586.97	1576.00
587.12	1576.00
587.28	1615.00
587.44	1608.00
587.59	1628.00
587.75	1650.00
587.91	1625.00
588.06	1655.00
588.22	1661.00
588.37	1671.00
588.53	1670.00
588.69	1702.00
588.84	1714.00
589.00	1741.00
589.16	1717.00
589.31	1751.00
589.47	1755.00
589.62	1762.00
589.78	1753.00
589.94	1789.00
590.09	1803.00
590.25	1818.00
590.40	1837.00
590.56	1800.00
590.72	1836.00
590.87	1838.00
591.03	1826.00
591.18	1847.00
591.34	1856.00
591.49	1873.00
591.65	1867.00
591.81	1905.00
591.96	1892.00
592.12	1895.00
592.27	1893.00
592.43	1882.00
592.58	1913.00
592.74	1912.00
592.89	1956.00
593.05	1931.00
593.21	1941.00
593.36	1952.00
593.52	1958.00
593.67	1980.00
593.83	1960.00
593.98	1990.00
594.14	1992.00
594.29	2001.00
594.45	2004.00
594.60	2015.00
594.76	1994.00
594.91	1998.00
595.07	2024.00
595.22	2025.00
595.38	2038.00
595.53	2027.00
595.69	2073.00
595.84	2072.00
596.00	2046.00
596.15	2051.00
596.31	2026.00
596.46	2077.00
596.62	2088.00
596.77	2073.00
596.93	2087.00
597.08	2092.00
597.23	2063.00
597.39	2084.00
597.54	2082.00
597.70	2094.00
597.85	2083.00
598.01	2105.00
598.16	2096.00
598.32	2100.00
598.47	2125.00
598.62	2114.00
598.78	2117.00
598.93	2131.00
599.09	2139.00
599.24	2135.00
599.40	2097.00
599.55	2149.00
599.70	2131.00
599.86	2127.00
600.01	2121.00
600.17	2139.00
600.32	2116.00
600.47	2139.00
600.63	2124.00
600.78	2150.00
600.94	2150.00
601.09	2146.00
601.24	2155.00
601.40	2129.00
601.55	2134.00
601.70	2151.00
601.86	2128.00
602.01	2134.00
602.17	2154.00
602.32	2154.00
602.47	2149.00
602.63	2170.00
602.78	2131.00
602.93	2157.00
603.09	2159.00
603.24	2152.00
603.39	2126.00
603.55	2157.00
603.70	2154.00
603.85	2144.00
604.01	2134.00
604.16	2139.00
604.31	2149.00
604.47	2128.00
604.62	2132.00
604.77	2110.00
604.93	2150.00
605.08	2142.00
605.23	2142.00
605.39	2148.00
605.54	2132.00
605.69	2130.00
605.84	2121.00
606.00	2136.00
606.15	2136.00
606.30	2137.00
606.46	2113.00
606.61	2123.00
606.76	2117.00
606.91	2152.00
607.07	2085.00
607.22	2123.00
607.37	2114.00
607.52	2127.00
607.68	2119.00
607.83	2108.00
607.98	2088.00
608.13	2122.00
608.29	2087.00
608.44	2113.00
608.59	2054.00
608.74	2099.00
608.90	2070.00
609.05	2072.00
609.20	2081.00
609.35	2065.00
609.51	2067.00
609.66	2107.00
609.81	2104.00
609.96	2069.00
610.11	2076.00
610.27	2078.00
610.42	2088.00
610.57	2136.00
610.72	2089.00
610.87	2086.00
611.03	2112.00
611.18	2123.00
611.33	2137.00
611.48	2167.00
611.63	2157.00
611.78	2101.00
611.94	2133.00
612.09	2095.00
612.24	2100.00
612.39	2091.00
612.54	2052.00
612.69	2055.00
612.85	1990.00
613.00	2044.00
613.15	2019.00
613.30	2011.00
613.45	2047.00
613.60	1989.00
613.75	2012.00
613.91	2010.00
614.06	1985.00
614.21	1971.00
614.36	1981.00
614.51	1965.00
614.66	1962.00
614.81	1942.00
614.96	1955.00
615.12	1956.00
615.27	1941.00
615.42	1936.00
615.57	1936.00
615.72	1909.00
615.87	1926.00
616.02	1919.00
616.17	1897.00
616.32	1915.00
616.47	1876.00
616.63	1892.00
616.78	1891.00
616.93	1865.00
617.08	1871.00
617.23	1860.00
617.38	1844.00
617.53	1862.00
617.68	1840.00
617.83	1851.00
617.98	1825.00
618.13	1802.00
618.28	1821.00
618.43	1810.00
618.58	1783.00
618.73	1826.00
618.88	1779.00
619.03	1787.00
619.18	1781.00
619.33	1774.00
619.48	1750.00
619.63	1755.00
619.79	1770.00
619.94	1758.00
620.09	1728.00
620.24	1731.00
620.39	1730.00
620.54	1724.00
620.69	1782.00
620.84	1722.00
620.99	1722.00
621.14	1698.00
621.29	1734.00
621.44	1696.00
621.58	1661.00
621.73	1664.00
621.88	1670.00
622.03	1672.00
622.18	1640.00
622.33	1652.00
622.48	1648.00
622.63	1627.00
622.78	1623.00
622.93	1640.00
623.08	1605.00
623.23	1631.00
623.38	1616.00
623.53	1601.00
623.68	1584.00
623.83	1589.00
623.98	1575.00
624.13	1574.00
624.28	1594.00
624.43	1585.00
624.58	1542.00
624.72	1543.00
624.87	1555.00
625.02	1551.00
625.17	1557.00
625.32	1514.00
625.47	1525.00
625.62	1534.00
625.77	1533.00
625.92	1520.00
626.07	1497.00
626.21	1486.00
626.36	1488.00
626.51	1489.00
626.66	1489.00
626.81	1482.00
626.96	1484.00
627.11	1465.00
627.26	1477.00
627.40	1450.00
627.55	1484.00
627.70	1434.00
627.85	1446.00
628.00	1459.00
628.15	1434.00
628.30	1420.00
628.44	1440.00
628.59	1433.00
628.74	1421.00
628.89	1422.00
629.04	1399.00
629.19	1382.00
629.33	1389.00
629.48	1369.00
629.63	1396.00
629.78	1381.00
629.93	1376.00
630.08	1382.00
630.22	1373.00
630.37	1379.00
630.52	1363.00
630.67	1359.00
630.82	1352.00
630.96	1367.00
631.11	1337.00
631.26	1344.00
631.41	1326.00
631.55	1332.00
631.70	1313.00
631.85	1322.00
632.00	1306.00
632.15	1305.00
632.29	1286.00
632.44	1283.00
632.59	1295.00
632.74	1278.00
632.88	1264.00
633.03	1268.00
633.18	1258.00
633.33	1250.00
633.47	1286.00
633.62	1247.00
633.77	1261.00
633.92	1247.00
634.06	1231.00
634.21	1243.00
634.36	1221.00
634.51	1239.00
634.65	1219.00
634.80	1228.00
634.95	1223.00
635.09	1206.00
635.24	1190.00
635.39	1199.00
635.53	1188.00
635.68	1181.00
635.83	1181.00
635.98	1195.00
636.12	1193.00
636.27	1188.00
636.42	1175.00
636.56	1175.00
636.71	1145.00
636.86	1166.00
637.00	1160.00
637.15	1145.00
637.30	1147.00
637.44	1151.00
637.59	1146.00
637.74	1127.00
637.88	1125.00
638.03	1140.00
638.18	1113.00
638.32	1117.00
638.47	1087.00
638.62	1106.00
638.76	1093.00
638.91	1084.00
639.05	1112.00
639.20	1099.00
639.35	1086.00
639.49	1086.00
639.64	1095.00
639.79	1078.00
639.93	1068.00
640.08	1059.00
640.22	1063.00
640.37	1067.00
640.52	1057.00
640.66	1042.00
640.81	1061.00
640.95	1038.00
641.10	1040.00
641.25	1038.00
641.39	1038.00
641.54	1028.00
641.68	1033.00
641.83	1019.00
641.97	1029.00
642.12	1006.00
642.27	1032.00
642.41	1030.00
642.56	1022.00
642.70	1030.00
642.85	999.00
642.99	1000.00
643.14	1014.00
643.28	1001.00
643.43	984.00
643.57	981.00
643.72	979.00
643.87	983.00
644.01	974.00
644.16	962.00
644.30	961.00
644.45	952.00
644.59	964.00
644.74	962.00
644.88	944.00
645.03	950.00
645.17	939.00
645.32	941.00
645.46	929.00
645.61	929.00
645.75	928.00
645.90	928.00
646.04	920.00
646.19	918.00
646.33	904.00
646.48	915.00
646.62	895.00
646.77	897.00
646.91	906.00
647.05	893.00
647.20	915.00
647.34	897.00
647.49	881.00
647.63	866.00
647.78	886.00
647.92	864.00
648.07	866.00
648.21	866.00
648.36	865.00
648.50	879.00
648.64	877.00
648.79	854.00
648.93	868.00
649.08	850.00
649.22	854.00
649.37	858.00
649.51	847.00
649.65	842.00
649.80	823.00
649.94	833.00
650.09	826.00
650.23	813.00
650.37	820.00
650.52	828.00
650.66	805.00
650.81	817.00
650.95	807.00
651.09	786.00
651.24	801.00
651.38	792.00
651.52	812.00
651.67	798.00
651.81	807.00
651.96	792.00
652.10	767.00
652.24	782.00
652.39	778.00
652.53	760.00
652.67	766.00
652.82	792.00
652.96	761.00
653.10	762.00
653.25	757.00
653.39	740.00
653.53	750.00
653.68	744.00
653.82	747.00
653.96	743.00
654.11	744.00
654.25	723.00
654.39	720.00
654.54	722.00
654.68	737.00
654.82	724.00
654.97	726.00
655.11	730.00
655.25	713.00
655.39	712.00
655.54	711.00
655.68	685.00
655.82	697.00
655.97	701.00
656.11	694.00
656.25	693.00
656.39	697.00
656.54	684.00
656.68	701.00
656.82	685.00
656.96	679.00
657.11	669.00
657.25	664.00
657.39	681.00
657.53	660.00
657.68	667.00
657.82	647.00
657.96	673.00
658.10	664.00
658.25	645.00
658.39	647.00
658.53	651.00
658.67	642.00
658.82	637.00
658.96	636.00
659.10	633.00
659.24	632.00
659.38	634.00
659.53	631.00
659.67	629.00
659.81	610.00
659.95	619.00
660.09	628.00
660.24	615.00
660.38	605.00
660.52	608.00
660.66	609.00
660.80	625.00
660.95	603.00
661.09	602.00
661.23	607.00
661.37	598.00
661.51	610.00
661.65	588.00
661.80	602.00
661.94	586.00
662.08	586.00
662.22	574.00
662.36	591.00
662.50	582.00
662.64	578.00
662.79	575.00
662.93	570.00
663.07	563.00
663.21	560.00
663.35	562.00
663.49	559.00
663.63	557.00
663.77	556.00
663.92	554.00
664.06	554.00
664.20	549.00
664.34	534.00
664.48	536.00
664.62	528.00
664.76	543.00
664.90	523.00
665.04	531.00
665.18	531.00
665.33	524.00
665.47	528.00
665.61	515.00
665.75	527.00
665.89	529.00
666.03	512.00
666.17	530.00
666.31	515.00
666.45	503.00
666.59	517.00
666.73	500.00
666.87	511.00
667.01	496.00
667.15	497.00
667.29	496.00
667.43	483.00
667.57	483.00
667.71	496.00
667.86	485.00
668.00	479.00
668.14	496.00
668.28	486.00
668.42	484.00
668.56	467.00
668.70	477.00
668.84	474.00
668.98	466.00
669.12	470.00
669.26	476.00
669.40	466.00
669.54	458.00
669.68	453.00
669.82	457.00
669.96	460.00
670.10	460.00
670.24	448.00
670.38	449.00
670.52	429.00
670.66	434.00
670.79	450.00
670.93	439.00
671.07	441.00
671.21	430.00
671.35	440.00
671.49	430.00
671.63	422.00
671.77	424.00
671.91	432.00
672.05	425.00
672.19	425.00
672.33	414.00
672.47	422.00
672.61	411.00
672.75	417.00
672.89	401.00
673.03	409.00
673.16	405.00
673.30	401.00
673.44	403.00
673.58	401.00
673.72	415.00
673.86	393.00
674.00	399.00
674.14	399.00
674.28	390.00
674.42	388.00
674.55	394.00
674.69	387.00
674.83	376.00
674.97	384.00
675.11	387.00
675.25	380.00
675.39	384.00
675.53	386.00
675.66	378.00
675.80	377.00
675.94	372.00
676.08	374.00
676.22	368.00
676.36	370.00
676.50	363.00
676.63	370.00
676.77	363.00
676.91	361.00
677.05	363.00
677.19	355.00
677.33	356.00
677.46	360.00
677.60	362.00
677.74	348.00
677.88	353.00
678.02	343.00
678.16	355.00
678.29	343.00
678.43	338.00
678.57	341.00
678.71	335.00
678.85	338.00
678.98	341.00
679.12	340.00
679.26	326.00
679.40	332.00
679.53	340.00
679.67	334.00
679.81	326.00
679.95	331.00
680.09	326.00
680.22	324.00
680.36	324.00
680.50	312.00
680.64	325.00
680.77	316.00
680.91	311.00
681.05	329.00
681.19	312.00
681.32	308.00
681.46	308.00
681.60	316.00
681.74	307.00
681.87	310.00
682.01	302.00
682.15	311.00
682.28	305.00
682.42	301.00
682.56	304.00
682.70	298.00
682.83	295.00
682.97	297.00
683.11	295.00
683.24	292.00
683.38	296.00
683.52	295.00
683.65	287.00
683.79	293.00
683.93	289.00
684.07	285.00
684.20	281.00
684.34	287.00
684.48	280.00
684.61	286.00
684.75	275.00
684.89	264.00
685.02	304.00
685.16	279.00
685.30	276.00
685.43	273.00
685.57	285.00
685.70	281.00
685.84	266.00
685.98	272.00
>>>>>End Processed Spectral Data<<<<<
