SpectraSuite Data File
++++++++++++++++++++++++++++++++++++
Date: Wed Oct 01 14:30:32 PDT 2014
User: ugastro
Dark Spectrum Present: No
Reference Spectrum Present: No
Number of Sampled Component Spectra: 1
Spectrometers: USB2G5981
Integration Time (usec): 3000 (USB2G5981)
Spectra Averaged: 1 (USB2G5981)
Boxcar Smoothing: 0 (USB2G5981)
Correct for Electrical Dark: No (USB2G5981)
Strobe/Lamp Enabled: No (USB2G5981)
Correct for Detector Non-linearity: No (USB2G5981)
Correct for Stray Light: No (USB2G5981)
Number of Pixels in Processed Spectrum: 2048
>>>>>Begin Processed Spectral Data<<<<<
0.00	0.00
1.00	120.00
2.00	121.00
3.00	125.00
4.00	124.00
5.00	125.00
6.00	127.00
7.00	130.00
8.00	129.00
9.00	129.00
10.00	127.00
11.00	132.00
12.00	135.00
13.00	133.00
14.00	135.00
15.00	134.00
16.00	130.00
17.00	129.00
18.00	128.00
19.00	128.00
20.00	128.00
21.00	131.00
22.00	131.00
23.00	129.00
24.00	129.00
25.00	133.00
26.00	132.00
27.00	135.00
28.00	133.00
29.00	135.00
30.00	136.00
31.00	135.00
32.00	130.00
33.00	135.00
34.00	135.00
35.00	136.00
36.00	134.00
37.00	140.00
38.00	136.00
39.00	138.00
40.00	140.00
41.00	136.00
42.00	134.00
43.00	134.00
44.00	136.00
45.00	137.00
46.00	139.00
47.00	138.00
48.00	136.00
49.00	138.00
50.00	135.00
51.00	136.00
52.00	136.00
53.00	136.00
54.00	140.00
55.00	138.00
56.00	136.00
57.00	136.00
58.00	141.00
59.00	141.00
60.00	141.00
61.00	140.00
62.00	138.00
63.00	139.00
64.00	139.00
65.00	145.00
66.00	142.00
67.00	139.00
68.00	141.00
69.00	141.00
70.00	140.00
71.00	136.00
72.00	139.00
73.00	147.00
74.00	148.00
75.00	145.00
76.00	145.00
77.00	144.00
78.00	148.00
79.00	146.00
80.00	147.00
81.00	149.00
82.00	148.00
83.00	150.00
84.00	147.00
85.00	147.00
86.00	155.00
87.00	154.00
88.00	156.00
89.00	153.00
90.00	158.00
91.00	160.00
92.00	162.00
93.00	166.00
94.00	167.00
95.00	165.00
96.00	157.00
97.00	165.00
98.00	171.00
99.00	170.00
100.00	174.00
101.00	179.00
102.00	176.00
103.00	180.00
104.00	176.00
105.00	178.00
106.00	185.00
107.00	187.00
108.00	192.00
109.00	200.00
110.00	205.00
111.00	197.00
112.00	199.00
113.00	205.00
114.00	199.00
115.00	207.00
116.00	209.00
117.00	214.00
118.00	217.00
119.00	218.00
120.00	215.00
121.00	208.00
122.00	220.00
123.00	226.00
124.00	226.00
125.00	226.00
126.00	244.00
127.00	240.00
128.00	244.00
129.00	253.00
130.00	258.00
131.00	257.00
132.00	265.00
133.00	245.00
134.00	245.00
135.00	242.00
136.00	258.00
137.00	274.00
138.00	297.00
139.00	300.00
140.00	286.00
141.00	280.00
142.00	263.00
143.00	270.00
144.00	291.00
145.00	305.00
146.00	304.00
147.00	303.00
148.00	281.00
149.00	261.00
150.00	263.00
151.00	293.00
152.00	312.00
153.00	329.00
154.00	306.00
155.00	298.00
156.00	290.00
157.00	318.00
158.00	346.00
159.00	383.00
160.00	405.00
161.00	383.00
162.00	378.00
163.00	379.00
164.00	388.00
165.00	413.00
166.00	405.00
167.00	422.00
168.00	427.00
169.00	457.00
170.00	482.00
171.00	496.00
172.00	506.00
173.00	524.00
174.00	539.00
175.00	537.00
176.00	508.00
177.00	473.00
178.00	464.00
179.00	475.00
180.00	461.00
181.00	455.00
182.00	445.00
183.00	442.00
184.00	501.00
185.00	520.00
186.00	542.00
187.00	538.00
188.00	553.00
189.00	534.00
190.00	498.00
191.00	474.00
192.00	449.00
193.00	450.00
194.00	418.00
195.00	422.00
196.00	415.00
197.00	384.00
198.00	367.00
199.00	379.00
200.00	381.00
201.00	387.00
202.00	379.00
203.00	370.00
204.00	410.00
205.00	433.00
206.00	474.00
207.00	510.00
208.00	521.00
209.00	522.00
210.00	518.00
211.00	515.00
212.00	507.00
213.00	476.00
214.00	469.00
215.00	470.00
216.00	510.00
217.00	559.00
218.00	556.00
219.00	520.00
220.00	510.00
221.00	496.00
222.00	514.00
223.00	551.00
224.00	547.00
225.00	532.00
226.00	516.00
227.00	518.00
228.00	534.00
229.00	536.00
230.00	560.00
231.00	590.00
232.00	629.00
233.00	652.00
234.00	665.00
235.00	670.00
236.00	681.00
237.00	680.00
238.00	648.00
239.00	664.00
240.00	707.00
241.00	762.00
242.00	788.00
243.00	776.00
244.00	778.00
245.00	774.00
246.00	722.00
247.00	703.00
248.00	688.00
249.00	675.00
250.00	613.00
251.00	529.00
252.00	447.00
253.00	404.00
254.00	383.00
255.00	440.00
256.00	534.00
257.00	621.00
258.00	654.00
259.00	719.00
260.00	820.00
261.00	829.00
262.00	900.00
263.00	936.00
264.00	966.00
265.00	954.00
266.00	965.00
267.00	919.00
268.00	847.00
269.00	737.00
270.00	659.00
271.00	552.00
272.00	495.00
273.00	538.00
274.00	640.00
275.00	792.00
276.00	919.00
277.00	1011.00
278.00	1158.00
279.00	1194.00
280.00	1212.00
281.00	1196.00
282.00	1259.00
283.00	1249.00
284.00	1384.00
285.00	1375.00
286.00	1349.00
287.00	1351.00
288.00	1370.00
289.00	1363.00
290.00	1452.00
291.00	1408.00
292.00	1390.00
293.00	1395.00
294.00	1438.00
295.00	1467.00
296.00	1462.00
297.00	1464.00
298.00	1422.00
299.00	1459.00
300.00	1485.00
301.00	1500.00
302.00	1540.00
303.00	1462.00
304.00	1459.00
305.00	1423.00
306.00	1360.00
307.00	1356.00
308.00	1407.00
309.00	1508.00
310.00	1535.00
311.00	1432.00
312.00	1400.00
313.00	1270.00
314.00	1311.00
315.00	1383.00
316.00	1521.00
317.00	1487.00
318.00	1445.00
319.00	1360.00
320.00	1334.00
321.00	1320.00
322.00	1319.00
323.00	1294.00
324.00	1308.00
325.00	1342.00
326.00	1376.00
327.00	1394.00
328.00	1352.00
329.00	1370.00
330.00	1318.00
331.00	1351.00
332.00	1431.00
333.00	1426.00
334.00	1459.00
335.00	1491.00
336.00	1524.00
337.00	1600.00
338.00	1513.00
339.00	1518.00
340.00	1450.00
341.00	1362.00
342.00	1305.00
343.00	1307.00
344.00	1288.00
345.00	1396.00
346.00	1456.00
347.00	1465.00
348.00	1536.00
349.00	1584.00
350.00	1642.00
351.00	1683.00
352.00	1686.00
353.00	1612.00
354.00	1630.00
355.00	1660.00
356.00	1629.00
357.00	1616.00
358.00	1592.00
359.00	1614.00
360.00	1631.00
361.00	1653.00
362.00	1706.00
363.00	1779.00
364.00	1743.00
365.00	1748.00
366.00	1685.00
367.00	1752.00
368.00	1783.00
369.00	1795.00
370.00	1793.00
371.00	1770.00
372.00	1807.00
373.00	1820.00
374.00	1892.00
375.00	1898.00
376.00	2040.00
377.00	2023.00
378.00	1982.00
379.00	1957.00
380.00	1880.00
381.00	1930.00
382.00	1875.00
383.00	1956.00
384.00	1933.00
385.00	1982.00
386.00	1963.00
387.00	2000.00
388.00	2004.00
389.00	1922.00
390.00	1943.00
391.00	2141.00
392.00	2177.00
393.00	2192.00
394.00	2084.00
395.00	2003.00
396.00	1956.00
397.00	1917.00
398.00	2161.00
399.00	2135.00
400.00	2282.00
401.00	2362.00
402.00	2338.00
403.00	2376.00
404.00	2244.00
405.00	2234.00
406.00	2348.00
407.00	2317.00
408.00	2213.00
409.00	2131.00
410.00	1937.00
411.00	1907.00
412.00	2217.00
413.00	2268.00
414.00	2225.00
415.00	2182.00
416.00	2185.00
417.00	2170.00
418.00	2246.00
419.00	2256.00
420.00	2397.00
421.00	2313.00
422.00	2242.00
423.00	2069.00
424.00	2203.00
425.00	2170.00
426.00	2251.00
427.00	2118.00
428.00	2123.00
429.00	2164.00
430.00	2200.00
431.00	2276.00
432.00	2226.00
433.00	2156.00
434.00	2039.00
435.00	1877.00
436.00	1908.00
437.00	2059.00
438.00	2074.00
439.00	2153.00
440.00	2087.00
441.00	2079.00
442.00	2100.00
443.00	2042.00
444.00	1898.00
445.00	1941.00
446.00	1965.00
447.00	1937.00
448.00	1918.00
449.00	1764.00
450.00	1643.00
451.00	1516.00
452.00	1523.00
453.00	1521.00
454.00	1465.00
455.00	1462.00
456.00	1545.00
457.00	1698.00
458.00	1990.00
459.00	2108.00
460.00	2304.00
461.00	2254.00
462.00	2201.00
463.00	2033.00
464.00	1981.00
465.00	1986.00
466.00	2176.00
467.00	2269.00
468.00	2336.00
469.00	2372.00
470.00	2176.00
471.00	2016.00
472.00	1879.00
473.00	1904.00
474.00	2014.00
475.00	2181.00
476.00	2220.00
477.00	2400.00
478.00	2259.00
479.00	2267.00
480.00	2300.00
481.00	2387.00
482.00	2402.00
483.00	2442.00
484.00	2518.00
485.00	2572.00
486.00	2636.00
487.00	2589.00
488.00	2531.00
489.00	2498.00
490.00	2425.00
491.00	2526.00
492.00	2466.00
493.00	2470.00
494.00	2428.00
495.00	2365.00
496.00	2220.00
497.00	2295.00
498.00	2318.00
499.00	2433.00
500.00	2511.00
501.00	2565.00
502.00	2618.00
503.00	2651.00
504.00	2665.00
505.00	2638.00
506.00	2618.00
507.00	2612.00
508.00	2639.00
509.00	2726.00
510.00	2795.00
511.00	2873.00
512.00	2936.00
513.00	2929.00
514.00	2953.00
515.00	3013.00
516.00	3116.00
517.00	3092.00
518.00	3060.00
519.00	3101.00
520.00	3177.00
521.00	3185.00
522.00	3113.00
523.00	3045.00
524.00	2963.00
525.00	3107.00
526.00	3160.00
527.00	3373.00
528.00	3115.00
529.00	3204.00
530.00	3314.00
531.00	3295.00
532.00	3278.00
533.00	3207.00
534.00	3345.00
535.00	3020.00
536.00	3155.00
537.00	3104.00
538.00	3185.00
539.00	3144.00
540.00	3251.00
541.00	3346.00
542.00	3323.00
543.00	3288.00
544.00	3267.00
545.00	3358.00
546.00	3522.00
547.00	3648.00
548.00	3463.00
549.00	3390.00
550.00	3294.00
551.00	3577.00
552.00	3428.00
553.00	3403.00
554.00	3368.00
555.00	3405.00
556.00	3409.00
557.00	3579.00
558.00	3437.00
559.00	3430.00
560.00	3468.00
561.00	3606.00
562.00	3570.00
563.00	3576.00
564.00	3641.00
565.00	3638.00
566.00	3540.00
567.00	3604.00
568.00	3398.00
569.00	3560.00
570.00	3251.00
571.00	3451.00
572.00	3523.00
573.00	3408.00
574.00	3091.00
575.00	3115.00
576.00	3004.00
577.00	3004.00
578.00	3002.00
579.00	3055.00
580.00	3053.00
581.00	3314.00
582.00	3292.00
583.00	3294.00
584.00	3259.00
585.00	3242.00
586.00	3026.00
587.00	3038.00
588.00	3052.00
589.00	3228.00
590.00	3175.00
591.00	3015.00
592.00	3126.00
593.00	3258.00
594.00	3184.00
595.00	3119.00
596.00	3176.00
597.00	3049.00
598.00	3183.00
599.00	3210.00
600.00	3225.00
601.00	3143.00
602.00	3269.00
603.00	3213.00
604.00	3115.00
605.00	2978.00
606.00	2954.00
607.00	2996.00
608.00	2975.00
609.00	2996.00
610.00	3130.00
611.00	2968.00
612.00	2923.00
613.00	3007.00
614.00	3007.00
615.00	2899.00
616.00	3020.00
617.00	3037.00
618.00	2962.00
619.00	3158.00
620.00	3131.00
621.00	3151.00
622.00	3046.00
623.00	3015.00
624.00	3029.00
625.00	2920.00
626.00	2984.00
627.00	3068.00
628.00	3215.00
629.00	2993.00
630.00	2920.00
631.00	3020.00
632.00	2995.00
633.00	3065.00
634.00	3043.00
635.00	3144.00
636.00	3113.00
637.00	3058.00
638.00	2949.00
639.00	2905.00
640.00	3084.00
641.00	3030.00
642.00	2889.00
643.00	2968.00
644.00	2903.00
645.00	3099.00
646.00	3063.00
647.00	3092.00
648.00	3197.00
649.00	3083.00
650.00	3158.00
651.00	3244.00
652.00	3104.00
653.00	2928.00
654.00	2955.00
655.00	3025.00
656.00	3170.00
657.00	3171.00
658.00	3191.00
659.00	3138.00
660.00	3248.00
661.00	3194.00
662.00	3099.00
663.00	3198.00
664.00	3219.00
665.00	3241.00
666.00	3419.00
667.00	3373.00
668.00	3302.00
669.00	3379.00
670.00	3375.00
671.00	3413.00
672.00	3448.00
673.00	3264.00
674.00	3188.00
675.00	3253.00
676.00	3333.00
677.00	3342.00
678.00	3454.00
679.00	3563.00
680.00	3498.00
681.00	3586.00
682.00	3853.00
683.00	3744.00
684.00	3676.00
685.00	3887.00
686.00	3716.00
687.00	3719.00
688.00	3688.00
689.00	3775.00
690.00	3885.00
691.00	3722.00
692.00	3814.00
693.00	3725.00
694.00	3869.00
695.00	4064.00
696.00	3966.00
697.00	4040.00
698.00	3925.00
699.00	4095.00
700.00	3942.00
701.00	3998.00
702.00	4028.00
703.00	3981.00
704.00	4095.00
705.00	4095.00
706.00	3977.00
707.00	3964.00
708.00	3931.00
709.00	4017.00
710.00	4095.00
711.00	4095.00
712.00	3986.00
713.00	4095.00
714.00	4095.00
715.00	4095.00
716.00	4095.00
717.00	4095.00
718.00	4095.00
719.00	4095.00
720.00	4095.00
721.00	4095.00
722.00	4095.00
723.00	4095.00
724.00	4095.00
725.00	4095.00
726.00	4095.00
727.00	4095.00
728.00	4095.00
729.00	4095.00
730.00	4095.00
731.00	4095.00
732.00	4095.00
733.00	4095.00
734.00	4095.00
735.00	4095.00
736.00	4095.00
737.00	4095.00
738.00	4095.00
739.00	4095.00
740.00	4095.00
741.00	4095.00
742.00	4095.00
743.00	4095.00
744.00	4095.00
745.00	4095.00
746.00	4095.00
747.00	4095.00
748.00	4095.00
749.00	4095.00
750.00	4095.00
751.00	4095.00
752.00	4095.00
753.00	4095.00
754.00	4095.00
755.00	4095.00
756.00	4095.00
757.00	4095.00
758.00	4095.00
759.00	4095.00
760.00	4095.00
761.00	4095.00
762.00	4095.00
763.00	4095.00
764.00	3884.00
765.00	3709.00
766.00	3843.00
767.00	3997.00
768.00	3939.00
769.00	4095.00
770.00	4095.00
771.00	4095.00
772.00	4095.00
773.00	4095.00
774.00	4095.00
775.00	4095.00
776.00	4095.00
777.00	4095.00
778.00	4095.00
779.00	4095.00
780.00	4095.00
781.00	4095.00
782.00	4095.00
783.00	4095.00
784.00	4095.00
785.00	4095.00
786.00	4095.00
787.00	4095.00
788.00	4095.00
789.00	4095.00
790.00	4095.00
791.00	4095.00
792.00	4095.00
793.00	4095.00
794.00	4095.00
795.00	4095.00
796.00	4095.00
797.00	4095.00
798.00	4095.00
799.00	4095.00
800.00	4095.00
801.00	4095.00
802.00	4095.00
803.00	4095.00
804.00	4095.00
805.00	4095.00
806.00	4095.00
807.00	4095.00
808.00	4095.00
809.00	4095.00
810.00	4095.00
811.00	4095.00
812.00	4095.00
813.00	4095.00
814.00	4095.00
815.00	4095.00
816.00	4095.00
817.00	4095.00
818.00	4095.00
819.00	4095.00
820.00	4095.00
821.00	4095.00
822.00	4095.00
823.00	4095.00
824.00	4095.00
825.00	4095.00
826.00	4095.00
827.00	4095.00
828.00	4095.00
829.00	4095.00
830.00	4095.00
831.00	4095.00
832.00	4095.00
833.00	4095.00
834.00	4095.00
835.00	4095.00
836.00	4095.00
837.00	4095.00
838.00	4095.00
839.00	4095.00
840.00	4095.00
841.00	4095.00
842.00	4095.00
843.00	4095.00
844.00	4095.00
845.00	4095.00
846.00	4095.00
847.00	4095.00
848.00	4095.00
849.00	4095.00
850.00	4095.00
851.00	4095.00
852.00	4095.00
853.00	4095.00
854.00	4095.00
855.00	4095.00
856.00	4095.00
857.00	4095.00
858.00	4095.00
859.00	4095.00
860.00	4095.00
861.00	4095.00
862.00	4095.00
863.00	4095.00
864.00	4095.00
865.00	4095.00
866.00	4095.00
867.00	4095.00
868.00	4095.00
869.00	4095.00
870.00	4095.00
871.00	4095.00
872.00	4095.00
873.00	4095.00
874.00	4095.00
875.00	4095.00
876.00	4095.00
877.00	4095.00
878.00	4095.00
879.00	4095.00
880.00	4095.00
881.00	4095.00
882.00	4095.00
883.00	4095.00
884.00	4095.00
885.00	4095.00
886.00	4095.00
887.00	4095.00
888.00	4095.00
889.00	4095.00
890.00	4095.00
891.00	4095.00
892.00	4095.00
893.00	4095.00
894.00	4095.00
895.00	4095.00
896.00	4095.00
897.00	4095.00
898.00	4095.00
899.00	4095.00
900.00	4095.00
901.00	4095.00
902.00	4095.00
903.00	4095.00
904.00	4095.00
905.00	4095.00
906.00	4095.00
907.00	4095.00
908.00	4095.00
909.00	4095.00
910.00	4095.00
911.00	4095.00
912.00	4095.00
913.00	4095.00
914.00	4095.00
915.00	4095.00
916.00	4095.00
917.00	4095.00
918.00	4095.00
919.00	4095.00
920.00	4095.00
921.00	4095.00
922.00	4095.00
923.00	4095.00
924.00	4095.00
925.00	4095.00
926.00	4095.00
927.00	4095.00
928.00	4095.00
929.00	4095.00
930.00	4095.00
931.00	4095.00
932.00	4095.00
933.00	4095.00
934.00	4095.00
935.00	4095.00
936.00	4095.00
937.00	4095.00
938.00	4095.00
939.00	4095.00
940.00	4095.00
941.00	4095.00
942.00	4095.00
943.00	4095.00
944.00	4095.00
945.00	4095.00
946.00	4095.00
947.00	4095.00
948.00	4095.00
949.00	4095.00
950.00	4095.00
951.00	4095.00
952.00	4095.00
953.00	4095.00
954.00	4095.00
955.00	4095.00
956.00	4095.00
957.00	4095.00
958.00	4095.00
959.00	4095.00
960.00	4095.00
961.00	4095.00
962.00	4095.00
963.00	4095.00
964.00	4095.00
965.00	4095.00
966.00	4095.00
967.00	4095.00
968.00	4095.00
969.00	4095.00
970.00	4095.00
971.00	4095.00
972.00	4095.00
973.00	4095.00
974.00	4095.00
975.00	4095.00
976.00	4095.00
977.00	4095.00
978.00	4095.00
979.00	4095.00
980.00	4095.00
981.00	4095.00
982.00	4095.00
983.00	4095.00
984.00	4095.00
985.00	4095.00
986.00	4095.00
987.00	4095.00
988.00	4095.00
989.00	4095.00
990.00	4095.00
991.00	4095.00
992.00	4095.00
993.00	4095.00
994.00	4095.00
995.00	4095.00
996.00	4095.00
997.00	4095.00
998.00	4095.00
999.00	4095.00
1000.00	4095.00
1001.00	4095.00
1002.00	4095.00
1003.00	4095.00
1004.00	4095.00
1005.00	4095.00
1006.00	4095.00
1007.00	4095.00
1008.00	4095.00
1009.00	4095.00
1010.00	4095.00
1011.00	4095.00
1012.00	4095.00
1013.00	4095.00
1014.00	4095.00
1015.00	4095.00
1016.00	4095.00
1017.00	4095.00
1018.00	4095.00
1019.00	4095.00
1020.00	4095.00
1021.00	4095.00
1022.00	4095.00
1023.00	4095.00
1024.00	4095.00
1025.00	4095.00
1026.00	4095.00
1027.00	4095.00
1028.00	4095.00
1029.00	4095.00
1030.00	4095.00
1031.00	4095.00
1032.00	4095.00
1033.00	4095.00
1034.00	4095.00
1035.00	4095.00
1036.00	4095.00
1037.00	4095.00
1038.00	4095.00
1039.00	4095.00
1040.00	4095.00
1041.00	4095.00
1042.00	4095.00
1043.00	4095.00
1044.00	4095.00
1045.00	4095.00
1046.00	4095.00
1047.00	4095.00
1048.00	4095.00
1049.00	4095.00
1050.00	4095.00
1051.00	4095.00
1052.00	4095.00
1053.00	4095.00
1054.00	4095.00
1055.00	4095.00
1056.00	4095.00
1057.00	4095.00
1058.00	4095.00
1059.00	4095.00
1060.00	4095.00
1061.00	4095.00
1062.00	4095.00
1063.00	4095.00
1064.00	4095.00
1065.00	4095.00
1066.00	4095.00
1067.00	4095.00
1068.00	4095.00
1069.00	4095.00
1070.00	4095.00
1071.00	4095.00
1072.00	4095.00
1073.00	4095.00
1074.00	4095.00
1075.00	4095.00
1076.00	4095.00
1077.00	4095.00
1078.00	4095.00
1079.00	4095.00
1080.00	4095.00
1081.00	4095.00
1082.00	4095.00
1083.00	4095.00
1084.00	4095.00
1085.00	4095.00
1086.00	4095.00
1087.00	4095.00
1088.00	4095.00
1089.00	4095.00
1090.00	4095.00
1091.00	4095.00
1092.00	4095.00
1093.00	4095.00
1094.00	4095.00
1095.00	4095.00
1096.00	4095.00
1097.00	4095.00
1098.00	4095.00
1099.00	4095.00
1100.00	4095.00
1101.00	4095.00
1102.00	4095.00
1103.00	4095.00
1104.00	4095.00
1105.00	4095.00
1106.00	4095.00
1107.00	4095.00
1108.00	4095.00
1109.00	4095.00
1110.00	4095.00
1111.00	4095.00
1112.00	4095.00
1113.00	4095.00
1114.00	4095.00
1115.00	4095.00
1116.00	4095.00
1117.00	4095.00
1118.00	4095.00
1119.00	4095.00
1120.00	4095.00
1121.00	4095.00
1122.00	4095.00
1123.00	4095.00
1124.00	4095.00
1125.00	4095.00
1126.00	4095.00
1127.00	4095.00
1128.00	4095.00
1129.00	4095.00
1130.00	4095.00
1131.00	4095.00
1132.00	4095.00
1133.00	4095.00
1134.00	4095.00
1135.00	4095.00
1136.00	4095.00
1137.00	4095.00
1138.00	4095.00
1139.00	4095.00
1140.00	4095.00
1141.00	4095.00
1142.00	4095.00
1143.00	4095.00
1144.00	4095.00
1145.00	4095.00
1146.00	4095.00
1147.00	4095.00
1148.00	4095.00
1149.00	4095.00
1150.00	4095.00
1151.00	4095.00
1152.00	4095.00
1153.00	4095.00
1154.00	4095.00
1155.00	4095.00
1156.00	4095.00
1157.00	4095.00
1158.00	4095.00
1159.00	4095.00
1160.00	4095.00
1161.00	4095.00
1162.00	4095.00
1163.00	4095.00
1164.00	4095.00
1165.00	4095.00
1166.00	4095.00
1167.00	4095.00
1168.00	4095.00
1169.00	4095.00
1170.00	4095.00
1171.00	4095.00
1172.00	4095.00
1173.00	4095.00
1174.00	4095.00
1175.00	4095.00
1176.00	4095.00
1177.00	4095.00
1178.00	4095.00
1179.00	4095.00
1180.00	4095.00
1181.00	4095.00
1182.00	4095.00
1183.00	4095.00
1184.00	4095.00
1185.00	4095.00
1186.00	4095.00
1187.00	4095.00
1188.00	4095.00
1189.00	4095.00
1190.00	4095.00
1191.00	4095.00
1192.00	4095.00
1193.00	4095.00
1194.00	4095.00
1195.00	4095.00
1196.00	4095.00
1197.00	4095.00
1198.00	4095.00
1199.00	4095.00
1200.00	4095.00
1201.00	4095.00
1202.00	4095.00
1203.00	4095.00
1204.00	4095.00
1205.00	4095.00
1206.00	4095.00
1207.00	4095.00
1208.00	4095.00
1209.00	4095.00
1210.00	4095.00
1211.00	4095.00
1212.00	4095.00
1213.00	4095.00
1214.00	4095.00
1215.00	4095.00
1216.00	4095.00
1217.00	4095.00
1218.00	4095.00
1219.00	4095.00
1220.00	4095.00
1221.00	4095.00
1222.00	4095.00
1223.00	4095.00
1224.00	4095.00
1225.00	4095.00
1226.00	4095.00
1227.00	4095.00
1228.00	4095.00
1229.00	4095.00
1230.00	4095.00
1231.00	4095.00
1232.00	4095.00
1233.00	4095.00
1234.00	4095.00
1235.00	4095.00
1236.00	4095.00
1237.00	4095.00
1238.00	4095.00
1239.00	4095.00
1240.00	4095.00
1241.00	4095.00
1242.00	4095.00
1243.00	4095.00
1244.00	4095.00
1245.00	4095.00
1246.00	4095.00
1247.00	4095.00
1248.00	4095.00
1249.00	4095.00
1250.00	4095.00
1251.00	4095.00
1252.00	4095.00
1253.00	4095.00
1254.00	4095.00
1255.00	4095.00
1256.00	4095.00
1257.00	4095.00
1258.00	4095.00
1259.00	4095.00
1260.00	4095.00
1261.00	4095.00
1262.00	4095.00
1263.00	4095.00
1264.00	4095.00
1265.00	4095.00
1266.00	4095.00
1267.00	4095.00
1268.00	4095.00
1269.00	4095.00
1270.00	4095.00
1271.00	4095.00
1272.00	4095.00
1273.00	4095.00
1274.00	4095.00
1275.00	4095.00
1276.00	4095.00
1277.00	4095.00
1278.00	4095.00
1279.00	4095.00
1280.00	4095.00
1281.00	4095.00
1282.00	4095.00
1283.00	4095.00
1284.00	4095.00
1285.00	4095.00
1286.00	4095.00
1287.00	4095.00
1288.00	4095.00
1289.00	4095.00
1290.00	4095.00
1291.00	4095.00
1292.00	4095.00
1293.00	4095.00
1294.00	4095.00
1295.00	4095.00
1296.00	4095.00
1297.00	4095.00
1298.00	4095.00
1299.00	4095.00
1300.00	4095.00
1301.00	4095.00
1302.00	4095.00
1303.00	4095.00
1304.00	4095.00
1305.00	4095.00
1306.00	4095.00
1307.00	4095.00
1308.00	4095.00
1309.00	4095.00
1310.00	4095.00
1311.00	4095.00
1312.00	4095.00
1313.00	4095.00
1314.00	4095.00
1315.00	4095.00
1316.00	4095.00
1317.00	4095.00
1318.00	4095.00
1319.00	4095.00
1320.00	4095.00
1321.00	4095.00
1322.00	4095.00
1323.00	4095.00
1324.00	4095.00
1325.00	4095.00
1326.00	4095.00
1327.00	4095.00
1328.00	4095.00
1329.00	4095.00
1330.00	4095.00
1331.00	4095.00
1332.00	4095.00
1333.00	4083.00
1334.00	4088.00
1335.00	4095.00
1336.00	4095.00
1337.00	4095.00
1338.00	4095.00
1339.00	4095.00
1340.00	4095.00
1341.00	4095.00
1342.00	4095.00
1343.00	4095.00
1344.00	4095.00
1345.00	4095.00
1346.00	4095.00
1347.00	4095.00
1348.00	4095.00
1349.00	4095.00
1350.00	4095.00
1351.00	4095.00
1352.00	4095.00
1353.00	4095.00
1354.00	4095.00
1355.00	4095.00
1356.00	4095.00
1357.00	4053.00
1358.00	4086.00
1359.00	4009.00
1360.00	3978.00
1361.00	4036.00
1362.00	4035.00
1363.00	4042.00
1364.00	4040.00
1365.00	3936.00
1366.00	3984.00
1367.00	3983.00
1368.00	4039.00
1369.00	3962.00
1370.00	4053.00
1371.00	4095.00
1372.00	4084.00
1373.00	3955.00
1374.00	3992.00
1375.00	4064.00
1376.00	4095.00
1377.00	4036.00
1378.00	4042.00
1379.00	3973.00
1380.00	3994.00
1381.00	3810.00
1382.00	3624.00
1383.00	3513.00
1384.00	3462.00
1385.00	3505.00
1386.00	3604.00
1387.00	3717.00
1388.00	3714.00
1389.00	3619.00
1390.00	3749.00
1391.00	3802.00
1392.00	3784.00
1393.00	3743.00
1394.00	3721.00
1395.00	3793.00
1396.00	3923.00
1397.00	3928.00
1398.00	3925.00
1399.00	3903.00
1400.00	3925.00
1401.00	3884.00
1402.00	3963.00
1403.00	3894.00
1404.00	3864.00
1405.00	3940.00
1406.00	3904.00
1407.00	3926.00
1408.00	3983.00
1409.00	4018.00
1410.00	4069.00
1411.00	4021.00
1412.00	3983.00
1413.00	3915.00
1414.00	3818.00
1415.00	3820.00
1416.00	3771.00
1417.00	3772.00
1418.00	3816.00
1419.00	3837.00
1420.00	3849.00
1421.00	3776.00
1422.00	3781.00
1423.00	3924.00
1424.00	4026.00
1425.00	3936.00
1426.00	3799.00
1427.00	3922.00
1428.00	3984.00
1429.00	3934.00
1430.00	3895.00
1431.00	3797.00
1432.00	3886.00
1433.00	3856.00
1434.00	3913.00
1435.00	3985.00
1436.00	4006.00
1437.00	4020.00
1438.00	3929.00
1439.00	3788.00
1440.00	3702.00
1441.00	3791.00
1442.00	3980.00
1443.00	3993.00
1444.00	3946.00
1445.00	3798.00
1446.00	3671.00
1447.00	3721.00
1448.00	3710.00
1449.00	3779.00
1450.00	3814.00
1451.00	3751.00
1452.00	3826.00
1453.00	3849.00
1454.00	3814.00
1455.00	3790.00
1456.00	3810.00
1457.00	3939.00
1458.00	3801.00
1459.00	3666.00
1460.00	3661.00
1461.00	3617.00
1462.00	3581.00
1463.00	3682.00
1464.00	3812.00
1465.00	3821.00
1466.00	3745.00
1467.00	3632.00
1468.00	3529.00
1469.00	3642.00
1470.00	3718.00
1471.00	3703.00
1472.00	3679.00
1473.00	3691.00
1474.00	3703.00
1475.00	3812.00
1476.00	3846.00
1477.00	3836.00
1478.00	3837.00
1479.00	3733.00
1480.00	3774.00
1481.00	3787.00
1482.00	3720.00
1483.00	3812.00
1484.00	3908.00
1485.00	3775.00
1486.00	3752.00
1487.00	3874.00
1488.00	3845.00
1489.00	3807.00
1490.00	3744.00
1491.00	3892.00
1492.00	4064.00
1493.00	3997.00
1494.00	3872.00
1495.00	3831.00
1496.00	3866.00
1497.00	3716.00
1498.00	3638.00
1499.00	3641.00
1500.00	3755.00
1501.00	3852.00
1502.00	3748.00
1503.00	3730.00
1504.00	3829.00
1505.00	3810.00
1506.00	3776.00
1507.00	3826.00
1508.00	3791.00
1509.00	3624.00
1510.00	3607.00
1511.00	3582.00
1512.00	3716.00
1513.00	3667.00
1514.00	3662.00
1515.00	3627.00
1516.00	3680.00
1517.00	3778.00
1518.00	3672.00
1519.00	3751.00
1520.00	3611.00
1521.00	3523.00
1522.00	3564.00
1523.00	3572.00
1524.00	3587.00
1525.00	3624.00
1526.00	3727.00
1527.00	3737.00
1528.00	3746.00
1529.00	3689.00
1530.00	3706.00
1531.00	3698.00
1532.00	3656.00
1533.00	3526.00
1534.00	3508.00
1535.00	3564.00
1536.00	3665.00
1537.00	3461.00
1538.00	3468.00
1539.00	3540.00
1540.00	3679.00
1541.00	3599.00
1542.00	3476.00
1543.00	3403.00
1544.00	3378.00
1545.00	3399.00
1546.00	3508.00
1547.00	3413.00
1548.00	3434.00
1549.00	3447.00
1550.00	3511.00
1551.00	3511.00
1552.00	3474.00
1553.00	3381.00
1554.00	3415.00
1555.00	3434.00
1556.00	3415.00
1557.00	3333.00
1558.00	3292.00
1559.00	3333.00
1560.00	3301.00
1561.00	3279.00
1562.00	3373.00
1563.00	3432.00
1564.00	3471.00
1565.00	3321.00
1566.00	3346.00
1567.00	3392.00
1568.00	3365.00
1569.00	3160.00
1570.00	3133.00
1571.00	3232.00
1572.00	3300.00
1573.00	3299.00
1574.00	3324.00
1575.00	3416.00
1576.00	3377.00
1577.00	3388.00
1578.00	3359.00
1579.00	3210.00
1580.00	3116.00
1581.00	3030.00
1582.00	3117.00
1583.00	3236.00
1584.00	3303.00
1585.00	3266.00
1586.00	3108.00
1587.00	3092.00
1588.00	3214.00
1589.00	3355.00
1590.00	3383.00
1591.00	3365.00
1592.00	3270.00
1593.00	3159.00
1594.00	3144.00
1595.00	3104.00
1596.00	3123.00
1597.00	3186.00
1598.00	3155.00
1599.00	3228.00
1600.00	3186.00
1601.00	3126.00
1602.00	3244.00
1603.00	3290.00
1604.00	3251.00
1605.00	3018.00
1606.00	2866.00
1607.00	2904.00
1608.00	3055.00
1609.00	3100.00
1610.00	2904.00
1611.00	2924.00
1612.00	2965.00
1613.00	3028.00
1614.00	2912.00
1615.00	2931.00
1616.00	2993.00
1617.00	2878.00
1618.00	2904.00
1619.00	2908.00
1620.00	3028.00
1621.00	3050.00
1622.00	2958.00
1623.00	2786.00
1624.00	2797.00
1625.00	2836.00
1626.00	2902.00
1627.00	2892.00
1628.00	2813.00
1629.00	2796.00
1630.00	2883.00
1631.00	2860.00
1632.00	2748.00
1633.00	2788.00
1634.00	2883.00
1635.00	2941.00
1636.00	2963.00
1637.00	2775.00
1638.00	2674.00
1639.00	2728.00
1640.00	2827.00
1641.00	2790.00
1642.00	2781.00
1643.00	2841.00
1644.00	2868.00
1645.00	2812.00
1646.00	2751.00
1647.00	2761.00
1648.00	2742.00
1649.00	2790.00
1650.00	2764.00
1651.00	2755.00
1652.00	2832.00
1653.00	2740.00
1654.00	2621.00
1655.00	2629.00
1656.00	2638.00
1657.00	2706.00
1658.00	2775.00
1659.00	2900.00
1660.00	2850.00
1661.00	2679.00
1662.00	2589.00
1663.00	2567.00
1664.00	2570.00
1665.00	2582.00
1666.00	2572.00
1667.00	2562.00
1668.00	2622.00
1669.00	2720.00
1670.00	2798.00
1671.00	2819.00
1672.00	2763.00
1673.00	2582.00
1674.00	2595.00
1675.00	2587.00
1676.00	2544.00
1677.00	2571.00
1678.00	2508.00
1679.00	2635.00
1680.00	2674.00
1681.00	2614.00
1682.00	2491.00
1683.00	2575.00
1684.00	2593.00
1685.00	2602.00
1686.00	2536.00
1687.00	2579.00
1688.00	2505.00
1689.00	2582.00
1690.00	2683.00
1691.00	2603.00
1692.00	2585.00
1693.00	2565.00
1694.00	2533.00
1695.00	2470.00
1696.00	2497.00
1697.00	2577.00
1698.00	2523.00
1699.00	2516.00
1700.00	2504.00
1701.00	2653.00
1702.00	2655.00
1703.00	2702.00
1704.00	2640.00
1705.00	2542.00
1706.00	2412.00
1707.00	2436.00
1708.00	2426.00
1709.00	2501.00
1710.00	2470.00
1711.00	2481.00
1712.00	2594.00
1713.00	2549.00
1714.00	2487.00
1715.00	2606.00
1716.00	2604.00
1717.00	2586.00
1718.00	2498.00
1719.00	2469.00
1720.00	2447.00
1721.00	2512.00
1722.00	2480.00
1723.00	2529.00
1724.00	2526.00
1725.00	2522.00
1726.00	2435.00
1727.00	2390.00
1728.00	2422.00
1729.00	2477.00
1730.00	2463.00
1731.00	2431.00
1732.00	2371.00
1733.00	2397.00
1734.00	2414.00
1735.00	2419.00
1736.00	2412.00
1737.00	2354.00
1738.00	2343.00
1739.00	2356.00
1740.00	2419.00
1741.00	2373.00
1742.00	2380.00
1743.00	2424.00
1744.00	2371.00
1745.00	2410.00
1746.00	2402.00
1747.00	2382.00
1748.00	2381.00
1749.00	2401.00
1750.00	2486.00
1751.00	2411.00
1752.00	2417.00
1753.00	2405.00
1754.00	2429.00
1755.00	2420.00
1756.00	2431.00
1757.00	2426.00
1758.00	2346.00
1759.00	2338.00
1760.00	2433.00
1761.00	2406.00
1762.00	2428.00
1763.00	2420.00
1764.00	2319.00
1765.00	2301.00
1766.00	2376.00
1767.00	2427.00
1768.00	2407.00
1769.00	2292.00
1770.00	2222.00
1771.00	2234.00
1772.00	2269.00
1773.00	2336.00
1774.00	2364.00
1775.00	2358.00
1776.00	2378.00
1777.00	2318.00
1778.00	2309.00
1779.00	2368.00
1780.00	2334.00
1781.00	2416.00
1782.00	2303.00
1783.00	2305.00
1784.00	2306.00
1785.00	2310.00
1786.00	2229.00
1787.00	2219.00
1788.00	2219.00
1789.00	2297.00
1790.00	2294.00
1791.00	2303.00
1792.00	2226.00
1793.00	2252.00
1794.00	2261.00
1795.00	2289.00
1796.00	2326.00
1797.00	2369.00
1798.00	2248.00
1799.00	2376.00
1800.00	2422.00
1801.00	2447.00
1802.00	2361.00
1803.00	2341.00
1804.00	2310.00
1805.00	2277.00
1806.00	2273.00
1807.00	2294.00
1808.00	2390.00
1809.00	2303.00
1810.00	2304.00
1811.00	2161.00
1812.00	2272.00
1813.00	2262.00
1814.00	2280.00
1815.00	2311.00
1816.00	2228.00
1817.00	2205.00
1818.00	2152.00
1819.00	2177.00
1820.00	2222.00
1821.00	2237.00
1822.00	2220.00
1823.00	2268.00
1824.00	2274.00
1825.00	2302.00
1826.00	2183.00
1827.00	2166.00
1828.00	2086.00
1829.00	2117.00
1830.00	2077.00
1831.00	1974.00
1832.00	1919.00
1833.00	1841.00
1834.00	1739.00
1835.00	1717.00
1836.00	1772.00
1837.00	1770.00
1838.00	1861.00
1839.00	1918.00
1840.00	1958.00
1841.00	1979.00
1842.00	2034.00
1843.00	1996.00
1844.00	2101.00
1845.00	2107.00
1846.00	2147.00
1847.00	2151.00
1848.00	2120.00
1849.00	2197.00
1850.00	2203.00
1851.00	2136.00
1852.00	2173.00
1853.00	2150.00
1854.00	2156.00
1855.00	2128.00
1856.00	2141.00
1857.00	2157.00
1858.00	2227.00
1859.00	2176.00
1860.00	2215.00
1861.00	2242.00
1862.00	2213.00
1863.00	2220.00
1864.00	2118.00
1865.00	2169.00
1866.00	2227.00
1867.00	2252.00
1868.00	2234.00
1869.00	2226.00
1870.00	2226.00
1871.00	2254.00
1872.00	2195.00
1873.00	2200.00
1874.00	2147.00
1875.00	2102.00
1876.00	2031.00
1877.00	2027.00
1878.00	2056.00
1879.00	2186.00
1880.00	2146.00
1881.00	2175.00
1882.00	2093.00
1883.00	2027.00
1884.00	2090.00
1885.00	2082.00
1886.00	2099.00
1887.00	2044.00
1888.00	2074.00
1889.00	2030.00
1890.00	2138.00
1891.00	2129.00
1892.00	2102.00
1893.00	2056.00
1894.00	1981.00
1895.00	1955.00
1896.00	1969.00
1897.00	1985.00
1898.00	2092.00
1899.00	2138.00
1900.00	2117.00
1901.00	2067.00
1902.00	2066.00
1903.00	2006.00
1904.00	2046.00
1905.00	2058.00
1906.00	1974.00
1907.00	1951.00
1908.00	1970.00
1909.00	2066.00
1910.00	2119.00
1911.00	2085.00
1912.00	2040.00
1913.00	1975.00
1914.00	1953.00
1915.00	1865.00
1916.00	1858.00
1917.00	1924.00
1918.00	1882.00
1919.00	1949.00
1920.00	1944.00
1921.00	1973.00
1922.00	2029.00
1923.00	2028.00
1924.00	2002.00
1925.00	1923.00
1926.00	1879.00
1927.00	1851.00
1928.00	1899.00
1929.00	1946.00
1930.00	1930.00
1931.00	1898.00
1932.00	1815.00
1933.00	1844.00
1934.00	1827.00
1935.00	1769.00
1936.00	1795.00
1937.00	1803.00
1938.00	1860.00
1939.00	1789.00
1940.00	1795.00
1941.00	1803.00
1942.00	1792.00
1943.00	1814.00
1944.00	1725.00
1945.00	1735.00
1946.00	1704.00
1947.00	1747.00
1948.00	1827.00
1949.00	1768.00
1950.00	1873.00
1951.00	1800.00
1952.00	1771.00
1953.00	1746.00
1954.00	1726.00
1955.00	1746.00
1956.00	1669.00
1957.00	1736.00
1958.00	1816.00
1959.00	1784.00
1960.00	1724.00
1961.00	1771.00
1962.00	1720.00
1963.00	1692.00
1964.00	1646.00
1965.00	1641.00
1966.00	1719.00
1967.00	1759.00
1968.00	1721.00
1969.00	1645.00
1970.00	1591.00
1971.00	1637.00
1972.00	1648.00
1973.00	1648.00
1974.00	1762.00
1975.00	1835.00
1976.00	1760.00
1977.00	1691.00
1978.00	1653.00
1979.00	1679.00
1980.00	1600.00
1981.00	1623.00
1982.00	1614.00
1983.00	1677.00
1984.00	1629.00
1985.00	1640.00
1986.00	1612.00
1987.00	1630.00
1988.00	1711.00
1989.00	1646.00
1990.00	1602.00
1991.00	1619.00
1992.00	1573.00
1993.00	1598.00
1994.00	1563.00
1995.00	1557.00
1996.00	1562.00
1997.00	1483.00
1998.00	1455.00
1999.00	1493.00
2000.00	1496.00
2001.00	1539.00
2002.00	1498.00
2003.00	1522.00
2004.00	1456.00
2005.00	1504.00
2006.00	1544.00
2007.00	1485.00
2008.00	1468.00
2009.00	1536.00
2010.00	1478.00
2011.00	1516.00
2012.00	1468.00
2013.00	1531.00
2014.00	1480.00
2015.00	1580.00
2016.00	1495.00
2017.00	1426.00
2018.00	1396.00
2019.00	1372.00
2020.00	1398.00
2021.00	1381.00
2022.00	1402.00
2023.00	1356.00
2024.00	1331.00
2025.00	1294.00
2026.00	1283.00
2027.00	1246.00
2028.00	1282.00
2029.00	1408.00
2030.00	1413.00
2031.00	1443.00
2032.00	1441.00
2033.00	1373.00
2034.00	1327.00
2035.00	1253.00
2036.00	1201.00
2037.00	1221.00
2038.00	1299.00
2039.00	1359.00
2040.00	1355.00
2041.00	1384.00
2042.00	1379.00
2043.00	1283.00
2044.00	1265.00
2045.00	1255.00
2046.00	1268.00
2047.00	1283.00
>>>>>End Processed Spectral Data<<<<<
